{
  "experiment_name": "test_experiment",
  "participant_id": "test_participant",
  "start_time": 1774239112.6840441,
  "current_trial": 5,
  "total_trials": 10,
  "completed_trials": 5,
  "trials": [
    {
      "trial_number": 1,
      "timestamp": 1774239112.739501,
      "response_time": 528.649099936968,
      "accuracy": 0.8871021485604345,
      "apgi_metrics": {
        "ignition_prob": 0.060837603142183776,
        "surprise": 0.12836726863849304,
        "threshold": 0.498348575747317
      },
      "error": null,
      "metadata": null
    },
    {
      "trial_number": 2,
      "timestamp": 1774239112.833667,
      "response_time": 611.2048220978469,
      "accuracy": 0.8905468173275365,
      "apgi_metrics": {
        "ignition_prob": 0.06492702502316391,
        "surprise": 0.05548271289101608,
        "threshold": 0.49755198766233344
      },
      "error": null,
      "metadata": null
    },
    {
      "trial_number": 3,
      "timestamp": 1774239112.9682188,
      "response_time": 631.2458129756964,
      "accuracy": 0.7272972360551836,
      "apgi_metrics": {
        "ignition_prob": 0.06543178665444455,
        "surprise": 0.03646148267342674,
        "threshold": 0.49716347877941275
      },
      "error": null,
      "metadata": null
    },
    {
      "trial_number": 4,
      "timestamp": 1774239113.056868,
      "response_time": 541.6787198682599,
      "accuracy": 0.8658252577228718,
      "apgi_metrics": {
        "ignition_prob": 0.0661453058663177,
        "surprise": 0.06551489567347638,
        "threshold": 0.4941204111385043
      },
      "error": null,
      "metadata": null
    },
    {
      "trial_number": 5,
      "timestamp": 1774239113.1888661,
      "response_time": 280.4741285821055,
      "accuracy": 0.8884381422706694,
      "apgi_metrics": {
        "ignition_prob": 0.06865253140815816,
        "surprise": 0.019644103417346223,
        "threshold": 0.4936337356021061
      },
      "error": null,
      "metadata": null
    }
  ],
  "apgi_summary": null,
  "status": "completed",
  "end_time": 1774239113.234754,
  "error_log": []
}